# Step     T (K)     E_KS (eV)    E_tot (eV)   Vol (A^3)    P (kBar)
     1   9894.78    -898.12807    -894.29107    1000.001       6.398
     2  10292.39    -898.32946    -894.33827    1000.001       5.554
     3  10541.18    -898.42896    -894.34131    1000.001       4.279
     4  10198.59    -898.27691    -894.32210    1000.001       3.374
     5   9841.06    -898.12956    -894.31340    1000.001       2.722
     6   9847.19    -898.13175    -894.31321    1000.001       2.457
     7  10230.03    -898.28807    -894.32107    1000.001       2.726
     8  10649.32    -898.46889    -894.33929    1000.001       3.672
     9  10520.79    -898.42186    -894.34211    1000.001       5.144
    10  10098.95    -898.21077    -894.29460    1000.001       6.054
    11  10418.10    -898.37382    -894.33389    1000.001       5.247
    12  10673.17    -898.48487    -894.34603    1000.001       4.163
    13  10190.46    -898.28105    -894.32939    1000.001       3.695
    14   9419.87    -897.97545    -894.32261    1000.001       3.760
    15   8680.99    -897.69259    -894.32627    1000.001       4.472
    16   7885.26    -897.39630    -894.33856    1000.001       6.026
    17   6637.76    -896.92721    -894.35322    1000.001       8.452
    18   4663.65    -896.14605    -894.33757    1000.001      11.194
    19   2837.94    -895.38700    -894.28651    1000.001      12.675
    20   2564.96    -895.30666    -894.31202    1000.001      11.513
    21   3352.28    -895.64582    -894.34587    1000.001       9.032
    22   4041.84    -895.91827    -894.35092    1000.001       6.766
    23   4369.83    -896.04355    -894.34901    1000.001       4.918
    24   4503.76    -896.09343    -894.34696    1000.001       3.388
    25   4620.49    -896.13478    -894.34305    1000.001       2.116
    26   4841.12    -896.21349    -894.33620    1000.001       1.070
    27   5271.34    -896.37130    -894.32718    1000.001       0.262
    28   6038.75    -896.65952    -894.31782    1000.001      -0.293
    29   7285.05    -897.13781    -894.31282    1000.001      -0.470
    30   8991.08    -897.81638    -894.32982    1000.001       0.054
    31  10187.82    -898.37270    -894.42207    1000.001       1.966
    32   8583.06    -897.68454    -894.35620    1000.001       5.440
    33   8513.26    -897.62142    -894.32015    1000.001       4.707
    34  10290.61    -898.40966    -894.41917    1000.001       1.139
    35   9209.10    -897.89308    -894.32198    1000.001       0.054
    36   7539.93    -897.22270    -894.29886    1000.001      -0.939
    37   6436.86    -896.79296    -894.29687    1000.001      -1.594
    38   6064.38    -896.64908    -894.29744    1000.001      -1.736
    39   6416.58    -896.78528    -894.29706    1000.001      -1.395
    40   7493.89    -897.20463    -894.29865    1000.001      -0.526
    41   9157.66    -897.87057    -894.31941    1000.001       1.127
    42  10338.57    -898.42340    -894.41431    1000.001       4.156
    43   8568.76    -897.67978    -894.35698    1000.001       8.673
    44   8371.86    -897.54740    -894.30096    1000.001       8.583
    45  10250.37    -898.38214    -894.40725    1000.001       5.098
    46   9140.49    -897.84914    -894.30464    1000.001       4.001
    47   7445.92    -897.16876    -894.28138    1000.001       2.693
    48   6350.74    -896.74264    -894.27995    1000.001       1.454
    49   6000.38    -896.60767    -894.28085    1000.001       0.515
    50   6374.08    -896.75237    -894.28063    1000.001      -0.093
    51   7467.56    -897.17796    -894.28219    1000.001      -0.258
    52   9142.54    -897.84818    -894.30288    1000.001       0.337
    53  10323.71    -898.40247    -894.39914    1000.001       2.371
    54   8516.34    -897.64305    -894.34058    1000.001       6.030
    55   8321.79    -897.51611    -894.28909    1000.001       5.210
    56  10194.94    -898.34564    -894.39224    1000.001       1.255
    57   9038.45    -897.79370    -894.28877    1000.001      -0.021
    58   7299.94    -897.09614    -894.26537    1000.001      -1.250
    59   6171.27    -896.65682    -894.26372    1000.001      -2.153
    60   5806.71    -896.51614    -894.26441    1000.001      -2.540
    61   6193.51    -896.66583    -894.26411    1000.001      -2.427
    62   7330.86    -897.10836    -894.26560    1000.001      -1.755
    63   9084.04    -897.80834    -894.28573    1000.001      -0.251
    64  10397.61    -898.41308    -894.38109    1000.001       2.710
    65   8702.01    -897.71305    -894.33859    1000.001       7.333
    66   8464.64    -897.53360    -894.25118    1000.001       7.581
    67  10445.37    -898.42098    -894.37047    1000.001       4.291
    68   9303.09    -897.87071    -894.26316    1000.001       3.601
    69   7512.97    -897.15188    -894.23850    1000.001       2.736
    70   6321.59    -896.68790    -894.23652    1000.001       1.926
    71   5898.18    -896.52435    -894.23716    1000.001       1.358
    72   6231.70    -896.65354    -894.23701    1000.001       1.017
    73   7320.61    -897.07707    -894.23828    1000.001       0.985
    74   9050.84    -897.76589    -894.25615    1000.001       1.567
    75  10463.17    -898.40368    -894.34628    1000.001       3.437
    76   8902.23    -897.79738    -894.34527    1000.001       7.019
    77   8367.33    -897.39719    -894.15250    1000.001       6.779
    78  10532.38    -898.40585    -894.32160    1000.001       2.273
    79   9450.39    -897.86922    -894.20454    1000.001       0.732
    80   7583.01    -897.11804    -894.17750    1000.001      -0.754
    81   6294.03    -896.61612    -894.17542    1000.001      -1.963
    82   5766.05    -896.41212    -894.17616    1000.001      -2.664
    83   5988.17    -896.49780    -894.17570    1000.001      -2.878
    84   6972.28    -896.87935    -894.17564    1000.001      -2.568
    85   8668.27    -897.54965    -894.18827    1000.001      -1.509
    86  10351.46    -898.27826    -894.26417    1000.001       0.888
    87   9349.65    -897.97110    -894.34550    1000.001       5.260
    88   8197.74    -897.10249    -893.92357    1000.001       7.338
    89  10787.91    -898.41875    -894.23541    1000.001       3.281
    90  10031.07    -897.98733    -894.09749    1000.001       2.523
    91   8111.40    -897.20910    -894.06366    1000.001       1.879
    92   6696.11    -896.65740    -894.06078    1000.001       1.296
    93   6017.24    -896.39502    -894.06166    1000.001       1.030
    94   6060.96    -896.41155    -894.06124    1000.001       1.006
    95   6842.03    -896.71318    -894.05998    1000.001       1.197
    96   8380.85    -897.31483    -894.06491    1000.001       1.755
    97  10333.02    -898.11736    -894.11042    1000.001       3.147
    98  10625.10    -898.37827    -894.25807    1000.001       6.244
    99   8202.43    -896.95776    -893.77702    1000.001       9.713
   100  10254.32    -898.29106    -894.31464    1000.001       4.937
   101  10582.29    -898.28402    -894.18042    1000.001       2.333
   102   8765.57    -897.52243    -894.12331    1000.001       0.862
   103   7174.05    -896.89790    -894.11594    1000.001      -0.630
   104   6282.49    -896.55342    -894.11720    1000.001      -1.660
   105   6082.87    -896.47697    -894.11816    1000.001      -2.194
   106   6546.95    -896.65652    -894.11774    1000.001      -2.256
   107   7683.17    -897.09865    -894.11928    1000.001      -1.760
   108   9345.69    -897.76678    -894.14271    1000.001      -0.398
   109  10290.63    -898.24784    -894.25734    1000.001       2.518
   110   7830.46    -897.16803    -894.13154    1000.001       7.067
   111   8112.66    -897.41421    -894.26828    1000.001       5.884
   112   9966.80    -898.14684    -894.28191    1000.001       2.944
   113   8678.67    -897.55152    -894.18611    1000.001       2.585
   114   6988.15    -896.88011    -894.17025    1000.001       2.059
   115   5814.85    -896.42531    -894.17042    1000.001       1.770
   116   5222.13    -896.19550    -894.17047    1000.001       1.791
   117   5215.00    -896.19039    -894.16812    1000.001       1.977
   118   5887.42    -896.44709    -894.16406    1000.001       2.258
   119   7377.17    -897.02691    -894.16619    1000.001       2.753
   120   9463.37    -897.87983    -894.21012    1000.001       3.967
   121  10169.96    -898.30093    -894.35723    1000.001       6.828
   122   8054.94    -897.04128    -893.91773    1000.001      10.359
   123   9844.76    -898.24813    -894.43053    1000.001       6.171
   124  10265.66    -898.28965    -894.30884    1000.001       3.524
   125   8502.92    -897.54665    -894.24939    1000.001       2.046
   126   6936.28    -896.93131    -894.24156    1000.001       0.436
   127   6060.39    -896.59252    -894.24242    1000.001      -0.816
   128   5875.66    -896.52097    -894.24250    1000.001      -1.654
   129   6374.62    -896.71339    -894.24144    1000.001      -2.083
   130   7581.85    -897.18320    -894.24311    1000.001      -2.000
   131   9338.11    -897.88971    -894.26857    1000.001      -1.033
   132  10343.90    -898.39326    -894.38210    1000.001       1.572
   133   8190.84    -897.40001    -894.22377    1000.001       5.744
   134   8601.45    -897.72666    -894.39119    1000.001       4.144
   135  10157.13    -898.34155    -894.40282    1000.001       0.957
   136   8804.65    -897.72668    -894.31242    1000.001       0.154
   137   7139.74    -897.06328    -894.29463    1000.001      -0.688
   138   6111.06    -896.66386    -894.29411    1000.001      -1.169
   139   5808.57    -896.54734    -894.29489    1000.001      -1.180
   140   6212.85    -896.70351    -894.29430    1000.001      -0.769
   141   7333.99    -897.13935    -894.29537    1000.001       0.099
   142   9049.61    -897.82528    -894.31602    1000.001       1.676
   143  10282.76    -898.40154    -894.41409    1000.001       4.579
   144   8496.58    -897.64639    -894.35159    1000.001       8.953
   145   8380.31    -897.56016    -894.31044    1000.001       8.507
   146  10283.69    -898.39569    -894.40788    1000.001       4.725
   147   9120.73    -897.84076    -894.30392    1000.001       3.393
   148   7385.32    -897.14518    -894.28130    1000.001       1.873
   149   6238.39    -896.69925    -894.28012    1000.001       0.500
   150   5812.77    -896.53510    -894.28103    1000.001      -0.505
   151   6089.07    -896.64175    -894.28052    1000.001      -1.134
   152   7079.93    -897.02613    -894.28067    1000.001      -1.304
   153   8716.76    -897.67585    -894.29567    1000.001      -0.742
   154  10167.25    -898.32127    -894.37862    1000.001       1.176
   155   8813.49    -897.82896    -894.41127    1000.001       4.945
   156   8013.48    -897.23244    -894.12497    1000.001       5.584
   157  10264.55    -898.32911    -894.34873    1000.001       1.292
   158   9317.63    -897.83850    -894.22531    1000.001       0.060
   159   7476.56    -897.09525    -894.19599    1000.001      -1.031
   160   6200.42    -896.59839    -894.19399    1000.001      -1.872
   161   5674.50    -896.39571    -894.19526    1000.001      -2.212
   162   5868.89    -896.47102    -894.19518    1000.001      -2.091
   163   6782.71    -896.82482    -894.19462    1000.001      -1.504
   164   8400.62    -897.46015    -894.20255    1000.001      -0.282
   165  10227.88    -898.22639    -894.26023    1000.001       2.061
   166   9912.44    -898.23156    -894.38771    1000.001       6.269
   167   8019.14    -896.97766    -893.86800    1000.001       9.692
   168  10333.23    -898.33675    -894.32973    1000.001       5.489
   169   9998.93    -898.06390    -894.18651    1000.001       4.024
   170   8081.43    -897.27622    -894.14240    1000.001       2.953
   171   6591.66    -896.69410    -894.13799    1000.001       1.741
   172   5852.98    -896.40914    -894.13947    1000.001       0.785
   173   5835.51    -896.40286    -894.13997    1000.001       0.097
   174   6522.39    -896.66836    -894.13910    1000.001      -0.303
   175   7929.73    -897.21705    -894.14206    1000.001      -0.247
   176   9829.83    -897.98741    -894.17560    1000.001       0.693
   177  10583.99    -898.41389    -894.30963    1000.001       3.352
   178   8125.24    -897.15359    -894.00278    1000.001       7.223
   179   9218.93    -897.98257    -894.40765    1000.001       3.864
   180  10169.47    -898.27589    -894.33237    1000.001       0.776
   181   8505.32    -897.55591    -894.25772    1000.001      -0.429
   182   6832.33    -896.89476    -894.24532    1000.001      -1.687
   183   5864.43    -896.51964    -894.24553    1000.001      -2.516
   184   5646.31    -896.43572    -894.24620    1000.001      -2.845
   185   6159.88    -896.63427    -894.24559    1000.001      -2.703
   186   7415.79    -897.12286    -894.24716    1000.001      -2.008
   187   9265.43    -897.86340    -894.27045    1000.001      -0.455
   188  10510.38    -898.45258    -894.37687    1000.001       2.629
   189   8602.83    -897.60925    -894.27325    1000.001       7.303
   190   8759.37    -897.72692    -894.33021    1000.001       6.732
   191  10503.12    -898.45673    -894.38383    1000.001       3.660
   192   9177.74    -897.84395    -894.28501    1000.001       3.017
   193   7393.44    -897.13129    -894.26426    1000.001       2.160
   194   6231.33    -896.67932    -894.26293    1000.001       1.417
   195   5817.50    -896.51959    -894.26368    1000.001       0.930
   196   6136.33    -896.64287    -894.26332    1000.001       0.664
   197   7194.77    -897.05389    -894.26390    1000.001       0.689
   198   8912.80    -897.73519    -894.27899    1000.001       1.277
   199  10464.36    -898.41809    -894.36022    1000.001       3.066
   200   9251.56    -897.98570    -894.39813    1000.001       6.592
