# Step     T (K)     E_KS (eV)    E_tot (eV)   Vol (A^3)    P (kBar)
     1  10967.06    -898.13031    -893.87750    1000.001       6.504
     2  11358.38    -898.32931    -893.92476    1000.001       6.010
     3  11590.62    -898.42226    -893.92765    1000.001       5.087
     4  11226.31    -898.26140    -893.90806    1000.001       4.501
     5  10848.60    -898.10586    -893.89900    1000.001       4.110
     6  10843.29    -898.10325    -893.89844    1000.001       4.015
     7  11227.13    -898.26005    -893.90640    1000.001       4.379
     8  11659.79    -898.44671    -893.92528    1000.001       5.288
     9  11551.84    -898.40869    -893.92912    1000.001       6.640
    10  11150.59    -898.20615    -893.88217    1000.001       7.353
    11  11480.74    -898.37400    -893.92200    1000.001       6.302
    12  11721.38    -898.48012    -893.93481    1000.001       4.966
    13  11189.22    -898.25705    -893.91809    1000.001       4.266
    14  10333.90    -897.91823    -893.91095    1000.001       4.126
    15   9477.53    -897.58991    -893.91472    1000.001       4.659
    16   8536.21    -897.23594    -893.92577    1000.001       5.961
    17   7220.54    -896.73274    -893.93276    1000.001       7.828
    18   5585.24    -896.07908    -893.91324    1000.001       9.437
    19   4655.74    -895.70132    -893.89592    1000.001       9.311
    20   5401.26    -896.04934    -893.95484    1000.001       7.146
    21   7132.99    -896.75503    -893.98900    1000.001       4.878
    22   8666.42    -897.36079    -894.00013    1000.001       3.199
    23   9513.13    -897.69048    -894.00148    1000.001       2.077
    24   9605.94    -897.72241    -893.99742    1000.001       1.271
    25   9060.62    -897.50548    -893.99195    1000.001       0.595
    26   8064.17    -897.11331    -893.98618    1000.001      -0.032
    27   6829.26    -896.62802    -893.97977    1000.001      -0.620
    28   5595.14    -896.13485    -893.96517    1000.001      -1.121
    29   4621.67    -895.73723    -893.94503    1000.001      -1.456
    30   4099.43    -895.52762    -893.93794    1000.001      -1.747
    31   4183.98    -895.55728    -893.93482    1000.001      -1.870
    32   4913.41    -895.84309    -893.93777    1000.001      -1.673
    33   6198.28    -896.35182    -893.94825    1000.001      -1.084
    34   8055.72    -897.08301    -893.95917    1000.001       0.035
    35  10572.00    -898.07228    -893.97267    1000.001       2.052
    36  13101.78    -899.13911    -894.05850    1000.001       5.754
    37  14351.10    -899.54468    -893.97961    1000.001      11.148
    38  15232.21    -900.14763    -894.24089    1000.001      12.955
    39  13837.60    -899.21719    -893.85125    1000.001      12.787
    40  14568.08    -899.83334    -894.18413    1000.001       4.839
    41  13538.70    -899.31580    -894.06576    1000.001      -0.743
    42  10175.03    -897.93385    -893.98817    1000.001      -3.519
    43   7129.53    -896.74300    -893.97831    1000.001      -5.787
    44   4975.98    -895.91224    -893.98266    1000.001      -7.411
    45   3590.38    -895.37916    -893.98688    1000.001      -8.459
    46   2802.88    -895.07624    -893.98934    1000.001      -9.097
    47   2507.18    -894.96269    -893.99046    1000.001      -9.432
    48   2653.78    -895.01968    -893.99060    1000.001      -9.529
    49   3236.46    -895.24486    -893.98983    1000.001      -9.398
    50   4286.40    -895.65051    -893.98833    1000.001      -9.001
    51   5866.00    -896.26158    -893.98686    1000.001      -8.248
    52   8027.33    -897.10284    -893.99000    1000.001      -6.907
    53  10586.06    -898.12269    -894.01763    1000.001      -4.506
    54  12418.94    -898.91418    -894.09837    1000.001      -0.115
    55  12164.15    -898.69974    -893.98273    1000.001       6.197
    56  13966.71    -899.40502    -893.98901    1000.001       7.782
    57  17017.25    -900.79686    -894.19791    1000.001       6.703
    58  15663.04    -900.08359    -894.00978    1000.001       9.620
    59  13937.16    -899.40726    -894.00270    1000.001       9.024
    60  12781.97    -899.03266    -894.07607    1000.001       5.739
    61  10286.20    -897.97926    -893.99047    1000.001       4.141
    62   7993.59    -897.08515    -893.98540    1000.001       2.692
    63   6417.21    -896.47494    -893.98648    1000.001       1.567
    64   5492.34    -896.11323    -893.98341    1000.001       0.873
    65   5265.08    -896.02188    -893.98019    1000.001       0.501
    66   5787.29    -896.22623    -893.98203    1000.001       0.422
    67   6958.04    -896.69385    -893.99566    1000.001       0.773
    68   8317.40    -897.25218    -894.02686    1000.001       1.896
    69   8821.41    -897.48329    -894.06253    1000.001       4.150
    70   8041.81    -897.09264    -893.97419    1000.001       6.538
    71   8231.63    -897.17471    -893.98264    1000.001       5.357
    72   9333.60    -897.67319    -894.05381    1000.001       1.923
    73   9301.98    -897.62885    -894.02173    1000.001      -0.329
    74   8550.77    -897.31630    -894.00048    1000.001      -1.860
    75   7848.17    -897.03741    -893.99404    1000.001      -3.016
    76   7497.01    -896.89775    -893.99056    1000.001      -3.816
    77   7643.53    -896.94605    -893.98204    1000.001      -4.286
    78   8455.48    -897.26290    -893.98403    1000.001      -4.439
    79   9995.79    -897.87139    -893.99522    1000.001      -4.023
    80  11997.87    -898.66911    -894.01658    1000.001      -2.639
    81  13667.03    -899.35735    -894.05755    1000.001       0.366
    82  14079.89    -899.47478    -894.01488    1000.001       5.073
    83  14382.87    -899.55220    -893.97481    1000.001       7.985
    84  15263.88    -899.96801    -894.04898    1000.001       6.729
    85  15087.53    -899.91904    -894.06839    1000.001       3.572
    86  13176.97    -899.14383    -894.03406    1000.001       0.537
    87  10321.76    -898.00125    -893.99868    1000.001      -1.731
    88   7618.38    -896.93682    -893.98256    1000.001      -3.290
    89   5598.28    -896.14831    -893.97741    1000.001      -4.151
    90   4337.68    -895.65027    -893.96821    1000.001      -4.411
    91   3659.09    -895.37465    -893.95573    1000.001      -4.229
    92   3315.10    -895.23357    -893.94804    1000.001      -3.743
    93   3112.47    -895.15039    -893.94343    1000.001      -3.039
    94   2933.69    -895.07744    -893.93982    1000.001      -2.169
    95   2732.44    -894.99475    -893.93517    1000.001      -1.243
    96   2547.74    -894.91709    -893.92913    1000.001      -0.414
    97   2489.68    -894.88947    -893.92402    1000.001       0.106
    98   2654.94    -894.95220    -893.92267    1000.001       0.199
    99   3035.54    -895.10191    -893.92478    1000.001      -0.090
   100   3524.20    -895.29381    -893.92719    1000.001      -0.594
   101   4013.16    -895.48363    -893.92741    1000.001      -1.116
   102   4486.52    -895.66317    -893.92338    1000.001      -1.523
   103   5087.08    -895.87768    -893.90501    1000.001      -1.727
   104   6166.28    -896.28633    -893.89517    1000.001      -1.700
   105   8008.03    -897.02116    -893.91580    1000.001      -1.043
   106  10091.00    -897.89628    -893.98320    1000.001       0.978
   107  10154.95    -898.00309    -894.06520    1000.001       5.307
   108   8904.35    -897.19473    -893.74180    1000.001       9.344
   109  10718.38    -898.20868    -894.05231    1000.001       8.307
   110  10012.00    -897.83469    -893.95224    1000.001       9.629
   111   7486.05    -896.79685    -893.89391    1000.001      11.216
   112   5537.54    -896.01629    -893.86894    1000.001      11.645
   113   5218.04    -895.89195    -893.86850    1000.001      10.665
   114   6571.74    -896.43518    -893.88679    1000.001       8.612
   115   8911.50    -897.36694    -893.91124    1000.001       6.469
   116  11101.55    -898.26743    -893.96247    1000.001       5.359
   117  10981.92    -898.31205    -894.05348    1000.001       6.158
   118   8675.37    -897.06904    -893.70490    1000.001       6.963
   119  10067.98    -897.95275    -894.04859    1000.001       1.725
   120   9941.19    -897.81105    -893.95606    1000.001      -1.471
   121   7962.14    -896.99070    -893.90314    1000.001      -3.458
   122   6191.53    -896.29315    -893.89220    1000.001      -5.198
   123   5230.15    -895.91871    -893.89056    1000.001      -6.341
   124   5184.27    -895.90129    -893.89093    1000.001      -6.805
   125   6002.38    -896.22751    -893.89991    1000.001      -6.471
   126   7163.08    -896.72725    -893.94955    1000.001      -4.949
   127   6693.21    -896.63957    -894.04407    1000.001      -1.715
   128   4858.97    -895.57371    -893.68950    1000.001       1.096
   129   7327.96    -896.88421    -894.04258    1000.001      -2.419
   130   8348.15    -897.18424    -893.94699    1000.001      -3.796
   131   7717.05    -896.89180    -893.89929    1000.001      -4.100
   132   7351.94    -896.74345    -893.89252    1000.001      -4.110
   133   7693.36    -896.87848    -893.89515    1000.001      -3.362
   134   8680.95    -897.26763    -893.90133    1000.001      -1.664
   135  10055.52    -897.81733    -893.91801    1000.001       1.216
   136  11030.87    -898.25458    -893.97703    1000.001       5.696
   137   9433.58    -897.72022    -894.06207    1000.001      12.095
   138   6257.21    -896.11085    -893.68443    1000.001      17.321
   139   7454.31    -896.89890    -894.00826    1000.001      15.089
   140   7600.27    -896.84879    -893.90156    1000.001      13.297
   141   7141.63    -896.64281    -893.87343    1000.001      10.464
   142   7375.51    -896.74342    -893.88334    1000.001       6.829
   143   8070.69    -897.01813    -893.88848    1000.001       3.580
   144   8958.77    -897.36015    -893.88612    1000.001       1.175
   145   9988.14    -897.76404    -893.89084    1000.001      -0.160
   146  10723.19    -898.10071    -893.94247    1000.001      -0.013
   147   9199.77    -897.59190    -894.02442    1000.001       2.080
   148   6630.97    -896.21979    -893.64844    1000.001       3.297
   149   8352.28    -897.22741    -893.98856    1000.001      -1.604
   150   7986.32    -896.97527    -893.87834    1000.001      -3.791
   151   6195.27    -896.23704    -893.83464    1000.001      -5.224
   152   4860.16    -895.71198    -893.82731    1000.001      -6.464
   153   4424.69    -895.54255    -893.82674    1000.001      -7.138
   154   4939.64    -895.74322    -893.82773    1000.001      -7.176
   155   6322.77    -896.29017    -893.83833    1000.001      -6.414
   156   7964.11    -896.98381    -893.89549    1000.001      -4.386
   157   7663.74    -896.96182    -893.98997    1000.001      -0.523
   158   6336.46    -896.05402    -893.59686    1000.001       2.521
   159   9507.62    -897.64606    -893.95919    1000.001      -0.789
   160  10434.53    -897.89434    -893.84803    1000.001      -1.137
   161   9634.45    -897.54463    -893.80858    1000.001      -0.466
   162   8851.54    -897.24027    -893.80782    1000.001       0.741
   163   8325.91    -897.04138    -893.81276    1000.001       2.890
   164   7982.37    -896.90791    -893.81250    1000.001       5.908
   165   7903.55    -896.87354    -893.80870    1000.001       9.453
   166   8111.51    -896.98765    -893.84217    1000.001      13.089
   167   7182.01    -896.72772    -893.94268    1000.001      16.631
   168   5731.89    -895.77087    -893.54815    1000.001      17.760
   169   9423.41    -897.61513    -893.96091    1000.001      10.898
   170  10881.58    -898.07312    -893.85346    1000.001       6.433
   171   9999.88    -897.68062    -893.80287    1000.001       3.001
   172   8805.32    -897.20341    -893.78888    1000.001      -0.038
   173   7950.56    -896.86570    -893.78264    1000.001      -2.293
   174   7682.60    -896.75824    -893.77908    1000.001      -3.715
   175   8096.21    -896.92393    -893.78438    1000.001      -4.220
   176   8809.37    -897.24721    -893.83111    1000.001      -3.439
   177   7846.08    -896.98764    -893.94508    1000.001      -0.772
   178   4995.87    -895.48655    -893.54925    1000.001       1.917
   179   6910.90    -896.63862    -893.95871    1000.001      -2.450
   180   7384.58    -896.71483    -893.85124    1000.001      -4.546
   181   6060.71    -896.14841    -893.79819    1000.001      -5.560
   182   5079.50    -895.75883    -893.78910    1000.001      -6.473
   183   4980.31    -895.71993    -893.78867    1000.001      -6.838
   184   5819.74    -896.04643    -893.78965    1000.001      -6.542
   185   7528.49    -896.71727    -893.79787    1000.001      -5.405
   186   9626.22    -897.57709    -893.84423    1000.001      -3.002
   187  10119.49    -897.88585    -893.96171    1000.001       1.381
   188   8279.29    -896.81381    -893.60326    1000.001       6.287
   189  10612.12    -898.12027    -894.00510    1000.001       4.598
   190  11309.12    -898.30153    -893.91608    1000.001       5.125
   191   9323.79    -897.47519    -893.85961    1000.001       7.192
   192   6940.76    -896.52916    -893.83767    1000.001       9.177
   193   5276.08    -895.86263    -893.81667    1000.001      10.689
   194   5148.09    -895.80392    -893.80760    1000.001      10.991
   195   6831.03    -896.47666    -893.82772    1000.001      10.064
   196   9449.05    -897.55501    -893.89085    1000.001       9.028
   197  10395.24    -898.04096    -894.00989    1000.001       9.397
   198   8599.91    -897.00001    -893.66514    1000.001      10.146
   199  10467.33    -898.09292    -894.03390    1000.001       4.425
   200  10888.62    -898.16370    -893.94131    1000.001       0.560
